Folder: Concrete

File: formattedXValues.csv
Mix Number,Mix Proportion,Cement,SCM,Fine Aggregate,Coarse Aggregate,AEA - A,AEA - B,AEA - C,% Air - A,% Air - B,% Air - C,Slump - A,Slump - B,Slump - C,WCM - A,WCM - B,WCM - C,WRA - A,WRA - B,WRA - C
1,0,1,0,0,0,12,12,8,6,5.7,6.5,2.25,2.25,2.25,0.4,0.4,0.4,50,50,30
2,0,1,0,0,1,11,10,11,6.2,6,5.3,2.75,3,3,0.4,0.4,0.4,65,65,55
3,0,1,0,0,2,12,13,11,4.3,6.2,6.1,1.25,2.25,2.25,0.4,0.4,0.4,60,70,60
4,0,1,0,0,3,11,11,10.5,5.7,4.7,4.9,2.75,2,2,0.4,0.4,0.4,60,55,90
5,0,1,0,0,4,9,7,19,5.1,5.7,5.5,1.25,1.25,1.25,0.4,0.4,0.4,120,70,90
6,0,1,0,0,5,12,12,16,5.3,4.4,5.6,2.25,1.75,1.75,0.4,0.4,0.4,60,55,55
7,0,1,0,0,6,10,10,10,5.6,5.6,5.8,3,3,3,0.4,0.4,0.4,60,60,85
8,0,1,0,0,7,18,18,8,5.8,6,5.5,2.25,1.75,1.75,0.4,0.4,0.4,85,85,32
9,0,1,0,0,8,15,10.5,12,5.5,5,4.5,1.25,1.75,1.75,0.4,0.4,0.4,85,100,50
10,0,1,0,0,9,18,20,14,4.3,5.6,5.4,1.75,2,2,0.4,0.4,0.4,85,85,47
11,0,1,0,0,10,14.5,14,7,5.4,5.4,4.6,2.25,2.25,2.25,0.4,0.4,0.4,85,85,45
12,0,1,0,0,11,29,29,9,5.7,6.5,5.2,1,1.25,1.25,0.4,0.4,0.38,85,85,0
13,0,1,0,0,12,12,13,14,5.2,5.5,6.1,2.75,2.25,2.25,0.4,0.4,0.37,125,125,0
14,0,1,0,0,13,11.5,10,16,6.3,4.7,6.4,2.25,1.75,1.75,0.4,0.4,0.36,85,85,0
15,0,1,0,0,14,11,11,9,6.1,5.1,6.5,2,2,2,0.4,0.4,0.4,125,125,40
16,1,1,1,0,0,16,16.5,9,4.8,5.2,4.5,1.25,2,2,0.4,0.4,0.37,40,50,0
17,1,1,1,0,1,10.5,11,12,4.8,4.6,6,3,3,3,0.4,0.4,0.4,35,35,50
18,1,1,1,0,2,13.5,13,14,6.1,5.6,5.5,3,3,3,0.4,0.4,0.38,40,37,0
19,1,1,1,0,3,12.5,12.5,16,5.4,5.3,6.3,2.75,2.25,2.25,0.4,0.4,0.33,53,50,0
20,1,1,1,0,4,21,20.5,19,5.3,5.6,6.8,1.25,2,2,0.4,0.4,0.37,85,85,0
21,1,1,1,0,5,14,14,14,5.4,4.5,5.1,3,2,2,0.4,0.4,0.35,50,45,0
22,1,1,1,0,6,11.5,14,22,4.4,5.1,5.6,2.25,2.25,2.25,0.4,0.4,0.34,30,30,0
23,1,1,1,0,7,18.5,21,,4.8,4.9,,1.25,1.25,1.25,0.4,0.4,,85,85,
24,1,1,1,0,8,12,11.5,,5,4.6,,2.25,2.25,2.25,0.4,0.4,,80,80,
25,1,1,1,0,9,22.5,22.5,,5.8,5.8,,2,1.25,1.25,0.4,0.4,,85,85,
26,1,1,1,0,10,15.5,15.5,,4.4,4.1,,1.75,1.25,1.25,0.4,0.4,,80,80,
27,1,1,1,0,11,17,17,,5.7,5.5,,2.25,2.25,2.25,0.4,0.4,,120,122,
28,1,1,1,0,12,31,31,,5.6,5.2,,1.25,1.25,1.25,0.4,0.4,,85,85,
29,1,1,1,0,13,12,12.5,,5,6.3,,2.75,3,3,0.4,0.4,,80,75,
30,1,1,1,0,14,17,17,,6.2,5,,2.25,2,2,0.4,0.4,,125,125,
31,2,1,3,0,0,16,18.5,,4.5,5.5,,2.75,3,3,0.38,0.38,,0,0,
32,2,1,3,0,1,16.5,18.5,,4.2,5.2,,2.75,3,3,0.37,0.37,,0,0,
33,2,1,3,0,2,15.5,16,,4.8,5,,3,3,3,0.37,0.37,,0,0,
34,2,1,3,0,3,16,16.5,,5.3,4.5,,3,3,3,0.38,0.39,,0,0,
35,2,1,3,0,4,16,16,,5.6,4.8,,3,2.25,2.25,0.4,0.4,,25,25,
36,2,1,3,0,5,17.5,18.5,,4.8,4.6,,2.75,2.75,2.75,0.36,0.36,,0,0,
37,2,1,3,0,6,18,18.5,,5.2,4.6,,3,3,3,0.38,0.38,,0,0,
38,2,1,3,0,7,19,20,,5.1,5.1,,3,2.25,2.25,0.4,0.4,,10,10,
39,2,1,3,0,8,16,18,,4.1,5,,2.25,2.25,2.25,0.39,0.39,,0,0,
40,2,1,3,0,9,17.5,18,,4.9,4.3,,2,2.75,2.75,0.4,0.4,,45,45,
41,2,1,3,0,10,13.5,14,,3.4,3.7,,2,2.75,2.75,0.4,0.4,,50,50,
42,2,1,3,0,11,16,16.5,,4.7,4.6,,2,2,2,0.4,0.4,,30,35,
43,2,1,3,0,12,12,13.5,,5.3,5.1,,3,3,3,0.4,0.4,,85,65,
44,2,1,3,0,13,15,15,,4.5,5.8,,3,2.25,2.25,0.39,0.38,,0,0,
45,2,1,3,0,14,12,11,,5.1,5.3,,1.75,3,3,0.4,0.4,,85,80,
46,1,2,1,0,0,10,12,,6.1,5.5,,2.75,2,2,0.4,0.4,,30,33,
47,1,2,1,0,1,8,9,,4.7,5.4,,2.25,3,3,0.4,0.4,,32,32,
48,1,2,1,0,6,12,12,,5.9,4.4,,2.25,2,2,0.4,0.4,,22,22,
49,1,2,1,0,7,16,16,,6.1,5.8,,1.25,2,2,0.4,0.4,,85,85,
50,1,2,1,0,8,9.5,8.5,,4.3,4.5,,1.25,1.75,1.75,0.4,0.4,,65,70,
51,1,2,2,0,0,12,12,,5.7,5,,2.25,2,2,0.4,0.4,,25,25,
52,1,2,2,0,1,9,10,,4.5,5.2,,2.25,3,3,0.4,0.4,,20,20,
53,1,2,2,0,6,11,12,,4.9,5,,2.25,2.25,2.25,0.4,0.4,,25,25,
54,1,2,2,0,7,16,15,,6,5.9,,1.75,1.25,1.25,0.4,0.4,,80,83,
55,1,2,2,0,8,8,8,,4.6,4.8,,2,2,2,0.4,0.4,,70,70,
56,2,2,3,0,0,12,16,,5.2,6.3,,3,3,3,0.37,0.37,,0,0,
57,2,2,3,0,1,12.5,12.5,,5.9,5,,3,3,3,0.37,0.38,,0,0,
58,2,2,3,0,6,11.5,12,,5,4.7,,3,3,3,0.37,0.37,,0,0,
59,2,2,3,0,7,18,18,,6,6,,2.75,2.25,2.25,0.39,0.39,,0,0,
60,2,2,3,0,8,13,12,,5.5,3.7,,3,2,2,0.39,0.39,,0,0,
61,2,2,4,0,0,19,15,,6.1,6,,3,3,3,0.38,0.38,,0,0,
62,2,2,4,0,1,16,16,,5.9,4.7,,3,3,3,0.37,0.38,,0,0,
63,2,2,4,0,6,16,18,,5,4.9,,2,2.25,2.25,0.38,0.38,,0,0,
64,2,2,4,0,7,22,25,,5.4,6.4,,1.75,2.25,2.25,0.4,0.4,,0,0,
65,2,2,4,0,8,15,14,,5.2,4.6,,2.75,2.25,2.25,0.39,0.39,,0,0,
66,2,2,5,0,0,18,18.5,,5.6,5.2,,3,2.75,2.75,0.37,0.37,,0,0,
67,2,2,5,0,1,15,17.5,,4.2,4.6,,3,2.25,2.25,0.37,0.37,,0,0,
68,2,2,5,0,6,20,19.5,,6.2,4.8,,2.25,2.25,2.25,0.37,0.37,,0,0,
69,2,2,5,0,7,22,22,,4.9,5.6,,2,2.25,2.25,0.39,0.39,,0,0,
70,2,2,5,0,8,17,14,,5.5,3.7,,3,2.25,2.25,0.39,0.39,,0,0,
71,1,1,2,0,0,16,16,,5.8,5.5,,2.25,2.25,2.25,0.4,0.4,,40,40,
72,1,1,2,0,1,16,16,,5.7,6.2,,2.75,2.25,2.25,0.4,0.4,,35,35,
73,1,1,2,0,6,16,16,,4.6,5,,2.25,2.25,2.25,0.4,0.4,,30,35,
74,1,1,2,0,7,22,24,,5,5.2,,1.25,2,2,0.4,0.4,,85,85,
75,1,1,2,0,8,12,11,,4.8,4.7,,2,2.25,2.25,0.4,0.4,,80,80,
76,2,1,4,0,0,23,22.5,,6.3,5.3,,3,3,3,0.38,0.38,,0,0,
77,2,1,4,0,1,20.5,23,,4.2,5.6,,2.75,3,3,0.37,0.38,,0,0,
78,2,1,4,0,6,23,25,,4.8,4.9,,3,2.25,2.25,0.38,0.38,,0,0,
79,2,1,4,0,7,26.5,30,,4.8,6,,2.25,3,3,0.4,0.4,,10,10,
80,2,1,4,0,8,18,21,,3.6,4.3,,2,2.25,2.25,0.39,0.39,,0,0,
81,2,1,5,0,0,23,23.5,,5.3,4.9,,2.75,2.25,2.25,0.38,0.38,,0,0,
82,2,1,5,0,1,21,22.5,,4.6,4.7,,2.75,3,3,0.38,0.38,,0,0,
83,2,1,5,0,6,22.5,24,,5.2,4.7,,3,2.75,2.75,0.38,0.38,,0,0,
84,2,1,5,0,7,30,27,,6.6,5.9,,2.25,2.75,2.75,0.4,0.4,,10,10,
85,2,1,5,0,8,21,23,,4.2,4.5,,2.25,2.75,2.75,0.39,0.39,,0,0,
86,1,1,1,1,0,14,14,,6,5.5,,3,2.25,2.25,0.39,0.39,,0,0,
87,1,1,1,1,1,20,21,,4.4,5,,1.75,2.25,2.25,0.39,0.39,,0,0,
88,1,1,1,1,6,13.5,12.5,,6.4,5.3,,3,3,3,0.4,0.4,,0,0,
89,1,1,1,1,7,23,23,,5.8,6.1,,1.25,1.25,1.25,0.4,0.4,,10,15,
90,1,1,1,1,8,12,12,,4.6,3.7,,1.25,1.25,1.25,0.4,0.4,,20,20,
91,1,1,2,1,0,15,12.5,,6.6,5.3,,3,2.25,2.25,0.4,0.39,,0,0,
92,1,1,2,1,1,12,14,,4.8,5.6,,2.25,3,3,0.39,0.39,,0,0,
93,1,1,2,1,6,12.5,14,,5,4.5,,3,2.25,2.25,0.39,0.39,,0,0,
94,1,1,2,1,7,23,22,,6.6,6.2,,2.25,2.25,2.25,0.4,0.4,,10,10,
95,1,1,2,1,8,10,10,,4.7,4.6,,2.25,2.25,2.25,0.4,0.4,,25,25,
96,2,1,3,1,0,17,17,,5.6,5.6,,3,3,3,0.34,0.34,,0,0,
97,2,1,3,1,1,17,20,,5.5,4.9,,3,2.25,2.25,0.33,0.33,,0,0,
98,2,1,3,1,6,16,19,,4.7,5.4,,3,3,3,0.34,0.34,,0,0,
99,2,1,3,1,7,20,20.5,,5.6,4.9,,2.25,2.25,2.25,0.37,0.37,,0,0,
100,2,1,3,1,8,11,9,,5.6,4.9,,2.75,2.75,2.75,0.37,0.37,,0,0,
101,2,1,4,1,0,21,22,,5.4,5.8,,2.25,3,3,0.35,0.35,,0,0,
102,2,1,4,1,1,20,21,,4.4,5,,1.75,2.25,2.25,0.34,0.35,,0,0,
103,2,1,4,1,6,19.5,21.5,,4.5,4.5,,1.75,2,2,0.34,0.35,,0,0,
104,2,1,4,1,7,24,24,,5.8,5.7,,2.25,2,2,0.38,0.38,,0,0,
105,2,1,4,1,8,21,22,,4.7,5.3,,1.25,2,2,0.37,0.37,,0,0,
106,2,1,5,1,0,23,23,,5.6,6.4,,3,3,3,0.34,0.34,,0,0,
107,2,1,5,1,1,21,21,,5.9,6,,3,3,3,0.35,0.35,,0,0,
108,2,1,5,1,6,20,24,,4.5,5.2,,2.25,2.25,2.25,0.34,0.34,,0,0,
109,2,1,5,1,7,25,25,,5.8,6,,3,3,3,0.38,0.38,,0,0,
110,2,1,5,1,8,21,21,,5.4,4.8,,2.25,2.25,2.25,0.37,0.37,,0,0,